<?xml version="1.0" encoding="UTF-8"?>
<Bundle xmlns="http://hl7.org/fhir">
    <type value="transaction"/>

  <entry>
  <resource>
  <Patient>
    <id value="99900002"/>
    <text>
      <status value="generated"/>
      <div xmlns="http://www.w3.org/1999/xhtml">
        <p>Peter Parker</p>
      </div>
    </text>
    <identifier>
      <use value="usual"/>
      <type>
        <coding>
          <system value="http://hl7.org/fhir/v2/0203"/>
          <code value="MR"/>
          <display value="Medical record number"/>
        </coding>
        <text value="Medical record number"/>
      </type>
      <system value="http://hospital.smarthealthit.org"/>
      <value value="99900002"/>
    </identifier>
    <name>
      <use value="official"/>
      <family value="Parker"/>
      <given value="Peter"/>
    </name>
    <telecom>
      <system value="phone"/>
      <value value="800-834-9389"/>
      <use value="home"/>
    </telecom>
    <telecom>
      <system value="email"/>
      <value value="peter.parker@example.com"/>
    </telecom>
    <gender value="male" />
    <birthDate value="1984-02-26" />
    <address>
      <use value="home"/>
      <line value="17 Oak Rd"/>
      <city value="Belmont"/>
      <state value="MA"/>
      <postalCode value="02478"/>
      <country value="USA"/>
    </address>
    <active value="true"/>
  </Patient>
  
  </resource>
  <request>
    <method value="PUT"/>
    <url value="Patient/99900002"/>
  </request>
</entry>


  <entry>
  <resource>
    
    
    <Encounter>
  <id value="1038"/>
      <text>
        <status value="generated"/>
        <div xmlns="http://www.w3.org/1999/xhtml">2016-09-12T04:00:00Z: inpatient encounter - Vertebro-basilar artery syndrome</div>
      </text>
      <status value="finished"/>
      <class value="inpatient"/>
      <patient>
        <reference value="Patient/99900002"/>
      </patient>
      <period>
       <start value="2016-10-12T04:00:00Z"/>
       <end value="2016-10-20T04:20:00Z"/>
      </period>
      
      <reason>
       <coding>
          <system value="http://hl7.org/fhir/sid/icd-10"/>
          <code value="G45.0"/>
          <display value=" Vertebro-basilar artery syndrome"/>
       </coding>
      </reason> 
<!--   No indication, because no referral took place   -->
 <hospitalization> 
 <dischargeDiagnosis>
    <reference value="Condition/560"/>
 </dischargeDiagnosis> 
   <destination>
    <reference value="Location/3" />
 </destination>

  
  
  
 </hospitalization>
      
      
    </Encounter>
  
  </resource>
  <request>
    <method value="PUT"/>
    <url value="Encounter/1038"/>
  </request>
</entry>
 
  <entry>
  <resource>
 
 
 <Condition>
  <id value="560"/>
    <text>
     <status value="generated"/>
     <div xmlns="http://www.w3.org/1999/xhtml">Vertebro-basilar artery syndrome</div>   
   </text>
    <patient>
      <reference value="Patient/99900002"/>
    </patient>
    <code> 
      <coding>
        <system value="http://hl7.org/fhir/sid/icd-10"/>
        <code value="G45.0"/>
        <display value="Vertebro-basilar artery syndrome"/>
      </coding>
      <text value="Vertebro-basilar artery syndrome"/>
    </code>
   <clinicalStatus value="confirmed"/>
   <onsetDateTime value="2016-09-12T04:00:00Z"/>
   
  </Condition>
  
  </resource>
  <request>
    <method value="PUT"/>
    <url value="Condition/560"/>
  </request>
</entry>
 
<entry>
<resource>
  <Condition>
  <id value="561"/>
    <text>
     <status value="generated"/>
     <div xmlns="http://www.w3.org/1999/xhtml">Multiple joint pain</div>   
   </text>
    <patient>
      <reference value="Patient/99900002"/>
    </patient>
    <code> 
      <coding>
        <system value="http://snomed.info/sct"/>
        <code value="35678005"/>
        <display value="Multiple joint pain"/>
      </coding>
      <text value="Multiple joint pain"/>
    </code>
   <clinicalStatus value="confirmed"/>
   <onsetDateTime value="2004-03-06"/>
   
  </Condition>
  
  </resource>
  <request>
    <method value="PUT"/>
    <url value="Condition/560"/>
  </request>
</entry>

</Bundle>
